# Simple Text Format
# Sampling Rate (Hz):= 100.00
# Resolution:= 0
# Units:= m/s^2
# Labels:= acc_x	acc_y	acc_z
0.28467	-0.88965	0.22266
0.24902	-0.92285	0.21533
0.29736	-0.95703	0.22021
0.3335	-0.89502	0.19531
0.27002	-0.91455	0.19043
0.31641	-0.90186	0.18604
0.33496	-0.8877	0.22168
0.33643	-0.83301	0.20068
0.34717	-0.80762	0.19385
0.31641	-0.81689	0.17871
0.31787	-0.85596	0.17041
0.34326	-0.90283	0.17969
0.30908	-0.94189	0.18604
0.31494	-0.97998	0.21436
0.29932	-0.96191	0.22998
0.3208	-0.90967	0.23535
0.32227	-0.86719	0.23389
0.33203	-0.79492	0.23486
0.35254	-0.74072	0.23535
0.3335	-0.72168	0.21631
0.3418	-0.72803	0.21875
0.34424	-0.75586	0.22803
0.3335	-0.80713	0.22168
0.3208	-0.86279	0.2417
0.31055	-0.92627	0.27246
0.31299	-0.92676	0.30664
0.31445	-0.94092	0.33447
0.31934	-0.95703	0.36084
0.31299	-0.92627	0.38086
0.30273	-0.88184	0.38525
0.29541	-0.83789	0.40869
0.29541	-0.80371	0.40332
0.29053	-0.7793	0.39307
0.25928	-0.77783	0.36426
0.24902	-0.76416	0.33154
0.25195	-0.77979	0.33789
0.23877	-0.80469	0.33203
0.28857	-0.82764	0.34473
0.29395	-0.8667	0.37109
0.34717	-0.89062	0.39746
0.31494	-0.92236	0.42285
0.35449	-0.9502	0.43408
0.36035	-0.95654	0.43066
0.35937	-0.98145	0.43604
0.32227	-0.94775	0.43018
0.34229	-0.99414	0.41309
0.3208	-0.95947	0.41162
0.31885	-0.96045	0.38818
0.33838	-0.95264	0.38232
0.35059	-0.95068	0.36963
0.35205	-0.93994	0.36719
0.38379	-0.98145	0.3833
0.40381	-0.99707	0.3916
0.40967	-1.01758	0.40186
0.42578	-1.04004	0.39355
0.40918	-1.01611	0.39111
0.4668	-1.08545	0.41211
0.4375	-1.03271	0.38574
0.45654	-1.02295	0.38574
0.45264	-0.99219	0.37158
0.45312	-0.99756	0.32861
0.43115	-1.07227	0.32764
0.45996	-1.16064	0.33936
0.46582	-1.17139	0.38037
0.44873	-1.19189	0.41162
0.43701	-1.17432	0.41211
0.41943	-1.11084	0.40479
0.40381	-1.02588	0.37061
0.42041	-0.97168	0.33398
0.41943	-0.93652	0.32666
0.43066	-0.90967	0.32959
0.41309	-0.90039	0.32959
0.41602	-0.90625	0.34521
0.40088	-0.9209	0.3335
0.39795	-0.95068	0.3291
0.39258	-1.00146	0.3374
0.39062	-1.03418	0.31689
0.38135	-1.07861	0.31982
0.35986	-1.09424	0.33545
0.36328	-1.09326	0.32324
0.354	-1.06689	0.32129
0.34229	-1.01904	0.31494
0.33301	-0.99316	0.30469
0.32227	-0.94727	0.29053
0.2998	-0.90283	0.27295
0.30029	-0.8623	0.271
0.30322	-0.84961	0.25098
0.29248	-0.82471	0.25537
0.2793	-0.79687	0.23389
0.29395	-0.80322	0.24561
0.27637	-0.80371	0.23389
0.28027	-0.78564	0.22852
0.2749	-0.79346	0.22949
0.271	-0.77197	0.23096
0.27979	-0.75049	0.23145
0.27637	-0.73437	0.2207
0.26025	-0.73193	0.22754
0.28271	-0.73193	0.21289
0.29492	-0.72363	0.18164
0.28174	-0.7373	0.18262
0.2749	-0.75049	0.19482
0.3042	-0.78125	0.20264
0.33789	-0.83105	0.16016
0.30078	-0.81006	0.18652
0.35449	-0.83691	0.12305
0.31299	-0.84229	0.19775
0.33057	-0.87744	0.19971
0.32715	-0.9375	0.20215
0.32324	-0.9585	0.21729
0.35693	-0.9292	0.229
0.38867	-0.91406	0.25244
0.38916	-0.89648	0.23828
0.38037	-0.87256	0.23047
0.3501	-0.8999	0.23242
0.36182	-0.9126	0.22217
0.35645	-0.98096	0.2334
0.36279	-1.02051	0.25781
0.3501	-1.04736	0.28564
0.36133	-1.0376	0.31104
0.36035	-0.99365	0.30811
0.35937	-0.94238	0.31006
0.34961	-0.86816	0.29785
0.35059	-0.81152	0.28174
0.36377	-0.75488	0.2666
0.34229	-0.7417	0.23877
0.34717	-0.74805	0.24268
0.36426	-0.77295	0.24414
0.35352	-0.80762	0.2583
0.34912	-0.84619	0.27979
0.37646	-0.89746	0.29346
0.38428	-0.9292	0.30029
0.38623	-0.95312	0.31396
0.39355	-0.95947	0.32812
0.36865	-0.94287	0.35205
0.36523	-0.9043	0.34717
0.30322	-0.87598	0.35645
0.30713	-0.84717	0.3335
0.2959	-0.81152	0.3418
0.29883	-0.80957	0.35693
0.28174	-0.79785	0.34473
0.28076	-0.7959	0.34521
0.30859	-0.82812	0.3374
0.31445	-0.84717	0.33545
0.3457	-0.86768	0.32861
0.35547	-0.88477	0.33105
0.35791	-0.88916	0.3291
0.39795	-0.9502	0.35059
0.3418	-0.94189	0.34961
0.39355	-0.91553	0.34131
0.3457	-0.91895	0.31885
0.35937	-0.9165	0.31348
0.34668	-0.89697	0.29004
0.36768	-0.89453	0.29004
0.35742	-0.87646	0.28369
0.35645	-0.89258	0.28906
0.37354	-0.93311	0.28076
0.38232	-0.97607	0.26025
0.38672	-1.02588	0.271
0.44873	-1.12354	0.29297
0.41943	-1.13525	0.28906
0.4458	-1.1499	0.28906
0.42676	-1.15967	0.30127
0.41797	-1.19482	0.28223
0.41748	-1.15283	0.26709
0.42139	-1.16846	0.22754
0.4082	-1.23193	0.21436
0.41357	-1.26074	0.24854
0.43262	-1.26025	0.26855
0.43896	-1.26416	0.31299
0.43994	-1.18896	0.34375
0.42725	-1.12988	0.33301
0.42578	-1.04395	0.28369
0.41699	-1.021	0.25049
0.40088	-0.99121	0.22119
0.41895	-0.97363	0.23926
0.43018	-0.96582	0.23486
0.44287	-0.96436	0.22754
0.45947	-0.97363	0.24023
0.43994	-0.99561	0.22949
0.43311	-1.01611	0.21875
0.42236	-1.03174	0.22314
0.49316	-1.08057	0.2168
0.35791	-1.20947	0.27588
0.37891	-1.04932	0.23193
0.47119	-0.88379	0.00684
0.40332	-0.98193	0.02344
0.41602	-0.90869	0.12646
0.33594	-0.98926	0.19629
0.39111	-0.89355	0.19189
0.28613	-0.98242	0.18164
0.2793	-0.96143	0.19141
0.29785	-0.93994	0.1543
0.2915	-0.90967	0.13721
0.26025	-0.88379	0.13428
0.26318	-0.87598	0.12891
0.28564	-0.86621	0.12256
0.15869	-0.88037	0.14307
0.31592	-0.82812	0.07715
0.26172	-0.80176	0.12061
0.2627	-0.77051	0.08057
0.27148	-0.76807	0.05518
0.24365	-0.77588	0.11621
0.22461	-0.77344	0.11768
0.2915	-0.77734	0.10205
0.26904	-0.67334	0.08838
0.17578	-0.73437	0.08203
0.31982	-0.62207	0.04297
0.24707	-0.6626	0.17236
0.31445	-0.73682	0.14111
0.31885	-0.78662	0.14893
0.28613	-0.7876	0.16016
0.33643	-0.82227	0.17871
0.31543	-0.91309	0.18457
0.34082	-0.87988	0.1709
0.3877	-0.88281	0.2041
0.34473	-0.92871	0.18213
0.35742	-0.93164	0.17236
0.42529	-0.96484	0.15332
0.40625	-1.05518	0.20898
0.44336	-1.11475	0.25439
0.43896	-1.17578	0.27148
0.4585	-1.19189	0.29053
0.48096	-1.12158	0.2749
0.48437	-1.0542	0.27148
0.49707	-0.97852	0.26807
0.49951	-0.91748	0.27051
0.47217	-0.854	0.26318
0.4668	-0.80371	0.2334
0.44678	-0.79785	0.23096
0.41211	-0.81641	0.24316
0.39453	-0.82959	0.26416
0.37646	-0.83691	0.271
0.35889	-0.89111	0.2749
0.35547	-0.92187	0.29834
0.34912	-0.94629	0.31885
0.34229	-0.95703	0.34277
0.33887	-0.93066	0.34668
0.3374	-0.90967	0.33447
0.32715	-0.87744	0.31494
0.30859	-0.83447	0.31152
0.30469	-0.79785	0.2832
0.3125	-0.78613	0.26904
0.30762	-0.78955	0.2627
0.32227	-0.7749	0.26025
0.31934	-0.78564	0.25293
0.33008	-0.80811	0.26318
0.34619	-0.80908	0.27344
0.3457	-0.81592	0.271
0.34375	-0.84619	0.26807
0.35742	-0.8501	0.28516
0.34668	-0.86523	0.28027
0.35352	-0.87354	0.25684
0.35352	-0.89014	0.27734
0.35205	-0.8916	0.27783
0.35449	-0.896	0.26367
0.34961	-0.89355	0.25439
0.35059	-0.90918	0.25586
0.36035	-0.92236	0.25244
0.3457	-0.90576	0.24707
0.36719	-0.99658	0.24951
0.36035	-0.98486	0.24707
0.36035	-1.01123	0.25293
0.36865	-1.05811	0.23828
0.34717	-1.0332	0.24854
0.36572	-1.10693	0.25391
0.37939	-1.05664	0.25342
0.38086	-1.04395	0.24512
0.40527	-1.021	0.24561
0.39502	-0.99072	0.22314
0.38086	-0.99902	0.18994
0.37549	-1.05518	0.19531
0.40723	-1.11182	0.20947
0.42578	-1.1792	0.23975
0.43896	-1.18115	0.24805
0.46826	-1.21582	0.29443
0.47266	-1.19043	0.31689
0.49854	-1.1582	0.32471
0.51953	-1.12891	0.29004
0.4834	-1.10742	0.24658
0.47754	-1.07764	0.21973
0.44775	-1.0542	0.18311
0.41504	-1.02344	0.18018
0.38281	-1.02051	0.17187
0.35596	-1.00977	0.18994
0.35693	-1.00684	0.22021
0.33691	-0.99805	0.24268
0.33154	-0.97119	0.24707
0.33691	-0.98535	0.23682
0.34082	-0.94824	0.22412
0.36914	-0.94043	0.21875
0.3501	-0.91846	0.20557
0.38623	-0.90576	0.20215
0.37354	-0.88867	0.20459
0.35107	-0.87158	0.18701
0.33447	-0.87207	0.1792
0.33936	-0.84912	0.19287
0.33838	-0.84131	0.20068
0.30566	-0.84131	0.20312
0.31104	-0.85107	0.21729
0.31982	-0.86377	0.21533
0.31641	-0.86377	0.2124
0.30713	-0.86328	0.20312
0.29687	-0.85742	0.19189
0.29687	-0.84619	0.19775
0.22119	-0.82666	0.21338
0.31348	-0.83936	0.21973
0.31689	-0.8042	0.21484
0.29687	-0.78955	0.15576
0.32422	-0.79736	0.16309
0.2998	-0.80664	0.16162
0.30957	-0.80322	0.17529
0.28125	-0.78418	0.125
0.23437	-0.75244	0.16211
0.22656	-0.76904	0.19141
0.30127	-0.7959	0.18701
0.29639	-0.81396	0.17676
0.29736	-0.87256	0.25684
0.30615	-0.87842	0.22363
0.35449	-0.9082	0.23633
0.32715	-0.91016	0.24316
0.33984	-0.90723	0.25146
0.33984	-0.90234	0.22021
0.3291	-0.9541	0.21729
0.32812	-0.98975	0.19873
0.32471	-1.03271	0.21875
0.33691	-1.104	0.23828
0.35791	-1.12305	0.28418
0.37305	-1.11963	0.30762
0.3916	-1.09473	0.32715
0.39941	-1.06348	0.3374
0.3999	-1.01074	0.33301
0.40283	-0.92236	0.31006
0.38086	-0.85742	0.30176
0.354	-0.79346	0.28955
0.33545	-0.78174	0.26855
0.32861	-0.77051	0.25391
0.30859	-0.79053	0.26221
0.32324	-0.79687	0.2627
0.30566	-0.8623	0.27588
0.33203	-0.89648	0.30078
0.3335	-0.93701	0.3208
0.32812	-0.94727	0.34961
0.33789	-0.95068	0.36133
0.31885	-0.93799	0.33496
0.31885	-0.92285	0.32031
0.30371	-0.8667	0.30566
0.31055	-0.82764	0.28809
0.29932	-0.78467	0.27881
0.31689	-0.75	0.29492
0.3374	-0.73975	0.30762
0.3457	-0.7251	0.29736
0.33398	-0.75488	0.3042
0.34473	-0.75244	0.29492
0.35059	-0.7583	0.28467
0.35889	-0.76172	0.2793
0.35205	-0.78271	0.28369
0.33789	-0.79639	0.2793
0.3457	-0.81104	0.29004
0.35156	-0.81152	0.28271
0.31592	-0.82812	0.30029
0.31152	-0.85449	0.30176
0.32764	-0.87891	0.30225
0.32422	-0.90527	0.28955
0.34229	-0.91992	0.27588
0.36865	-0.95166	0.26904
0.35742	-1.00391	0.28027
0.37451	-1.06592	0.25781
0.38037	-1.09619	0.27148
0.40234	-1.19385	0.27881
0.39014	-1.18359	0.2915
0.40576	-1.20459	0.30078
0.42969	-1.20703	0.29834
0.42334	-1.16895	0.29932
0.42871	-1.14014	0.27148
0.43066	-1.17725	0.2251
0.44043	-1.24756	0.21875
0.44531	-1.30957	0.23779
0.50684	-1.30811	0.25586
0.5127	-1.2749	0.27686
0.52441	-1.20996	0.29102
0.53271	-1.13818	0.29736
0.51318	-1.0293	0.27979
0.50977	-0.95996	0.24756
0.48486	-0.9126	0.229
0.45508	-0.87939	0.21973
0.4209	-0.86377	0.20508
0.39551	-0.86279	0.2085
0.38477	-0.87012	0.19971
0.37256	-0.90283	0.21973
0.35547	-0.92773	0.22705
0.35107	-0.94434	0.23535
0.32324	-0.9707	0.23535
0.31396	-0.98828	0.2583
0.32764	-0.98047	0.26025
0.30566	-0.95557	0.2583
0.31934	-0.97461	0.25293
0.29639	-0.93652	0.23486
0.25977	-0.93604	0.23389
0.25342	-0.92773	0.21631
0.24805	-0.92676	0.19873
0.26611	-0.91504	0.21533
0.27881	-0.90625	0.21289
0.28271	-0.91113	0.21191
0.25342	-0.9209	0.2085
0.28125	-0.92334	0.20557
0.26611	-0.92334	0.20361
0.27637	-0.91064	0.19092
0.26025	-0.90381	0.19092
0.28271	-0.88818	0.19385
0.27881	-0.86084	0.19238
0.27881	-0.84521	0.19629
0.24756	-0.8252	0.24219
0.21484	-0.8042	0.20654
0.24414	-0.77734	0.22998
0.18799	-0.79248	0.21289
0.22363	-0.79883	0.15234
0.15332	-0.81299	0.17578
0.20166	-0.80225	0.20166
0.24316	-0.82959	0.16357
0.29736	-0.88477	0.16357
0.33057	-0.92822	0.2251
0.30273	-0.89893	0.2085
0.2998	-1.021	0.23926
0.38574	-1.00342	0.23193
0.34277	-1.00342	0.2417
0.35791	-0.9834	0.23633
0.35352	-0.92822	0.21631
0.34863	-0.93115	0.20654
0.26221	-0.92334	0.17627
0.32422	-1.02539	0.2207
0.36865	-0.98926	0.23584
0.37695	-1.0127	0.25928
0.38867	-1.02637	0.2749
0.37598	-1.01416	0.29443
0.38916	-0.97314	0.28174
0.38184	-0.89453	0.25732
0.37109	-0.82617	0.24902
0.35156	-0.74902	0.2168
0.33789	-0.74902	0.18896
0.32471	-0.74463	0.18262
0.33594	-0.74707	0.18359
0.34668	-0.79395	0.20703
0.35693	-0.8291	0.2168
0.37109	-0.896	0.23437
0.38232	-0.93066	0.25342
0.39795	-0.96436	0.28564
0.41846	-0.96729	0.29492
0.39795	-0.95361	0.28418
0.375	-0.92969	0.29639
0.34229	-0.9082	0.30859
0.34521	-0.87402	0.29248
0.31689	-0.8457	0.28271
0.30469	-0.82861	0.27002
0.29736	-0.80615	0.28467
0.27832	-0.78613	0.25977
0.27881	-0.79883	0.25635
0.29395	-0.79443	0.25098
0.30957	-0.79932	0.25
0.32129	-0.81348	0.25928
0.33447	-0.81982	0.27051
0.3457	-0.81592	0.26172
0.354	-0.8833	0.26855
0.3623	-0.85352	0.25879
0.3584	-0.88525	0.2627
0.37305	-0.90625	0.26367
0.35742	-0.91455	0.25439
0.354	-0.92187	0.25781
0.37354	-0.98193	0.23926
0.37158	-0.9873	0.23584
0.37695	-1.02588	0.24561
0.39893	-1.06055	0.23828
0.39746	-1.09717	0.25
0.40625	-1.10645	0.25342
0.42725	-1.12744	0.24902
0.41455	-1.12744	0.25244
0.42773	-1.10498	0.25391
0.4375	-1.08057	0.25928
0.40967	-1.04883	0.26123
0.41113	-1.01172	0.2627
0.42041	-1.0332	0.22705
0.40332	-1.07373	0.25293
0.42969	-1.12891	0.27881
0.45752	-1.1543	0.31982
0.46582	-1.18555	0.36816
0.47998	-1.15576	0.39844
0.47021	-1.10107	0.38574
0.43555	-1.05762	0.32324
0.42969	-1.00537	0.25928
0.40771	-0.96631	0.21582
0.37354	-0.94775	0.22119
0.36035	-0.94824	0.21582
0.34473	-0.95459	0.23291
0.33594	-0.98926	0.23975
0.33643	-1.02002	0.2583
0.3501	-1.0332	0.2749
0.37012	-1.05273	0.28418
0.38477	-1.03955	0.28516
0.37988	-1.04199	0.25439
0.35937	-1.00439	0.24609
0.38281	-0.98389	0.23926
0.37451	-0.95361	0.22607
0.33789	-0.92969	0.2041
0.31982	-0.90723	0.19678
0.31445	-0.86572	0.20801
0.32666	-0.88818	0.21387
0.32275	-0.86914	0.2207
0.31689	-0.86621	0.23291
0.2915	-0.87061	0.22607
0.29053	-0.86377	0.22852
0.271	-0.86768	0.21924
0.26172	-0.86621	0.21436
0.24805	-0.85889	0.19971
0.24414	-0.8418	0.19922
0.25781	-0.84082	0.19482
0.26367	-0.81738	0.19629
0.22266	-0.81885	0.18115
0.2168	-0.82471	0.24609
0.27783	-0.78174	0.24951
0.23437	-0.77539	0.27148
0.25293	-0.80615	0.20605
0.14209	-0.84277	0.19434
0.22852	-0.83154	0.18652
0.1582	-0.87012	0.17432
0.11523	-0.86328	0.2002
0.29492	-0.91309	0.18359
0.23193	-0.98242	0.24023
0.24463	-1.03711	0.24268
0.25928	-1.02832	0.25439
0.28271	-0.99854	0.26562
0.2832	-1.0	0.26807
0.27344	-0.96436	0.26904
0.28613	-0.95801	0.22852
0.25635	-0.95361	0.19824
0.26562	-0.98145	0.21582
0.30762	-1.03857	0.21973
0.26318	-1.04053	0.25732
0.38721	-1.12598	0.25928
0.39941	-1.08398	0.28955
0.34326	-1.03467	0.2832
0.36328	-0.92969	0.25488
0.5752	-0.95117	0.20557
0.27637	-0.85742	0.28125
0.33789	-0.8252	0.25293
0.36035	-0.84814	0.26514
0.33643	-0.88818	0.26318
0.32959	-0.97949	0.29248
0.31934	-1.04785	0.31201
0.33936	-1.0918	0.3208
0.33789	-1.08594	0.3374
0.32861	-1.03418	0.32764
0.31885	-0.99561	0.32715
0.3042	-0.93604	0.32129
0.26611	-0.87793	0.32764
0.22412	-0.8374	0.33398
0.24365	-0.77051	0.31104
0.23633	-0.70996	0.29736
0.26318	-0.69824	0.27783
0.25879	-0.69434	0.271
0.27246	-0.72461	0.27588
0.28027	-0.73828	0.26416
0.33154	-0.74756	0.27539
0.33643	-0.78418	0.27051
0.34033	-0.80908	0.26514
0.35693	-0.83545	0.25977
0.35303	-0.85352	0.24707
0.35645	-0.86523	0.26172
0.35498	-0.87988	0.2583
0.36035	-0.88037	0.25488
0.35693	-0.90527	0.2627
0.35742	-0.90039	0.26465
0.35205	-0.89893	0.2583
0.3418	-0.88818	0.25146
0.36719	-0.89307	0.24316
0.36377	-0.90674	0.23437
0.38721	-0.92285	0.23926
0.396	-0.95752	0.22803
0.39844	-1.00781	0.24854
0.41846	-1.04102	0.26025
0.42773	-1.0752	0.2749
0.45752	-1.09619	0.29248
0.44824	-1.10254	0.30762
0.45947	-1.08496	0.29834
0.45264	-1.08789	0.28271
0.43701	-1.11182	0.25537
0.43848	-1.20215	0.25195
0.44678	-1.26318	0.27051
0.45996	-1.31738	0.30322
0.48096	-1.32178	0.34326
0.4707	-1.30225	0.36621
0.46729	-1.23682	0.37256
0.45605	-1.16113	0.35254
0.42432	-1.06445	0.30713
0.41699	-0.98633	0.27441
0.39453	-0.92871	0.25391
0.38135	-0.87402	0.22559
0.37354	-0.84961	0.21924
0.36768	-0.85693	0.22754
0.37793	-0.875	0.22559
0.37549	-0.92725	0.22998
0.36377	-0.97803	0.25
0.36768	-1.03027	0.2417
0.36328	-1.0625	0.24854
0.35596	-1.07422	0.24902
0.32568	-1.07617	0.25146
0.32959	-1.06641	0.25244
0.32568	-1.04053	0.24463
0.30713	-1.01709	0.24756
0.27783	-0.98877	0.23437
0.25244	-0.95703	0.22021
0.2627	-0.9375	0.18359
0.24219	-0.93604	0.17041
0.21826	-0.92285	0.14502
0.21045	-0.90576	0.15283
0.13086	-0.91113	0.19092
0.34668	-0.86084	0.12598
0.25684	-0.86865	0.11035
0.34473	-0.94824	0.15918
0.31104	-0.87354	0.18262
0.23145	-0.85107	0.19287
0.33643	-0.86426	0.15723
0.41064	-0.77637	0.13135
0.16943	-0.92822	0.11035
0.20312	-0.81787	0.14062
0.23975	-0.78174	0.12158
0.25146	-0.79199	0.08887
0.23145	-0.76807	0.1709
0.28906	-0.79102	0.18506
0.26172	-0.76025	0.16309
0.31982	-0.79687	0.16064
0.29053	-0.81494	0.16064
0.33057	-0.83398	0.15674
0.28662	-0.84521	0.16357
0.31592	-0.86133	0.18262
0.31396	-0.87793	0.20166
0.3335	-0.90186	0.21436
0.36426	-0.91797	0.26807
0.31201	-0.9165	0.24854
0.34863	-0.96436	0.2168
0.18555	-1.01904	0.30664
0.52393	-1.11328	0.15283
0.37012	-1.14307	0.22998
0.2627	-1.0918	0.24316
0.37988	-1.14746	0.271
0.34521	-1.04102	0.28027
0.29541	-0.98975	0.31299
0.4585	-0.94775	0.28809
0.37451	-0.87891	0.28369
0.35449	-0.78125	0.28906
0.36572	-0.99805	0.31006
0.45508	-0.84424	0.23926
0.23193	-0.85254	0.24854
0.41357	-0.95215	0.24609
0.34229	-0.95654	0.26709
0.37744	-0.92773	0.26953
0.3374	-0.96973	0.2749
0.34717	-0.95801	0.28613
0.3374	-0.92871	0.30225
0.34229	-0.92236	0.27441
0.30518	-0.87549	0.26611
0.30518	-0.8418	0.25098
0.31104	-0.80762	0.22363
0.31689	-0.84082	0.23389
0.31787	-0.80225	0.2207
0.34424	-0.77051	0.21143
0.33447	-0.79297	0.21631
0.34766	-0.79395	0.21045
0.34717	-0.80615	0.21094
0.36963	-0.81445	0.21387
0.3584	-0.82324	0.2207
0.38086	-0.84473	0.2334
0.36426	-0.85937	0.21387
0.32666	-0.88867	0.25684
0.31445	-0.91846	0.25
0.36084	-0.89062	0.25928
0.3457	-0.8667	0.24414
0.37109	-0.94287	0.26172
0.34863	-0.90771	0.24902
0.35791	-0.96631	0.25049
0.36182	-1.0166	0.26074
0.3623	-1.01611	0.26221
0.36621	-1.06348	0.24805
0.35791	-1.0791	0.23584
0.35596	-1.11084	0.24854
0.38574	-1.0874	0.22852
0.39307	-1.10303	0.23242
0.39062	-1.07813	0.22656
0.40967	-1.05518	0.2168
0.40918	-1.00732	0.21631
0.40771	-0.97119	0.21436
0.3999	-0.99609	0.18799
0.41748	-1.0752	0.18311
0.43945	-1.13623	0.21387
0.46729	-1.22363	0.25146
0.45557	-1.21973	0.2998
0.48779	-1.25391	0.33252
0.48486	-1.20459	0.37744
0.47607	-1.12842	0.34814
0.4541	-1.06982	0.30176
0.4375	-1.02441	0.25635
0.40283	-0.979	0.21289
0.37158	-0.94531	0.17822
0.35547	-0.91357	0.17285
0.34668	-0.93213	0.18066
0.3418	-0.94043	0.19092
0.34717	-0.96582	0.20508
0.35059	-1.00928	0.22998
0.36426	-1.01758	0.25342
0.35693	-1.04736	0.2627
0.375	-1.04492	0.25928
0.35645	-1.03711	0.25146
0.36914	-1.00879	0.23145
0.34229	-0.97803	0.20312
0.33008	-0.95068	0.18115
0.33887	-0.92676	0.16113
0.3291	-0.9248	0.1543
0.29736	-0.90918	0.1582
0.28076	-0.89648	0.1792
0.26367	-0.90137	0.20215
0.25488	-0.89893	0.21533
0.25244	-0.88574	0.20605
0.26611	-0.89014	0.21631
0.2627	-0.88721	0.18213
0.24658	-0.86719	0.18701
0.26025	-0.85156	0.17725
0.28223	-0.84668	0.18213
0.30029	-0.82959	0.18066
0.29199	-0.87451	0.20557
0.29932	-0.79736	0.18262
0.28955	-0.79932	0.15479
0.24365	-0.80029	0.14502
0.3042	-0.79785	0.15918
0.26855	-0.7876	0.15137
0.39648	-0.87012	0.14258
0.24756	-0.74463	0.1626
0.28564	-0.80908	0.17773
0.27734	-0.84912	0.15723
0.30957	-0.90723	0.22412
0.30664	-0.93164	0.22607
0.32959	-0.96826	0.22559
0.31348	-1.00391	0.23145
0.33447	-0.97363	0.23242
0.3501	-0.97559	0.22217
0.33301	-1.02148	0.21436
0.26465	-1.0332	0.31201
0.29785	-1.09766	0.2168
0.35986	-1.06348	0.22607
0.47607	-1.06641	0.23535
0.35986	-0.99756	0.30273
0.35254	-0.97852	0.28467
0.39844	-0.91211	0.31299
0.38623	-0.80127	0.29883
0.37988	-0.75879	0.28467
0.36426	-0.73291	0.27441
0.35693	-0.729	0.24902
0.3501	-0.75049	0.23682
0.34326	-0.77637	0.24023
0.34473	-0.83936	0.25049
0.36084	-0.90479	0.26514
0.354	-0.94971	0.29883
0.35352	-0.99463	0.31445
0.34375	-1.00098	0.33643
0.34814	-0.9873	0.32959
0.32373	-0.96875	0.32324
0.30664	-0.94922	0.30859
0.31055	-0.91895	0.30957
0.29639	-0.88135	0.30273
0.2959	-0.84766	0.29932
0.29346	-0.81299	0.28564
0.29199	-0.79883	0.28418
0.30615	-0.77832	0.26416
0.3125	-0.77588	0.27246
0.32568	-0.80029	0.26514
0.34961	-0.79932	0.27393
0.33496	-0.81348	0.27686
0.37109	-0.83838	0.2627
0.36035	-0.85547	0.27295
0.37158	-0.89014	0.28418
0.37158	-0.89355	0.2793
0.37012	-0.91797	0.27637
0.36084	-0.93408	0.27441
0.36572	-0.94189	0.26562
0.35352	-0.94189	0.26709
0.34619	-0.96289	0.26318
0.35352	-0.94531	0.26855
0.33838	-0.93408	0.25098
0.36963	-1.01123	0.25049
0.36377	-1.00293	0.24707
0.37549	-1.02881	0.25781
0.38721	-1.04736	0.26611
0.42676	-1.05908	0.2666
0.41748	-1.05029	0.26611
0.41992	-1.03174	0.2666
0.42432	-1.01123	0.25391
0.41748	-1.00342	0.2207
0.41162	-1.0791	0.18066
0.43604	-1.15332	0.20508
0.44238	-1.2417	0.21533
0.46338	-1.28418	0.25293
0.48291	-1.33496	0.28906
0.4873	-1.32373	0.32812
0.48291	-1.25488	0.35693
0.46973	-1.15137	0.30664
0.46484	-1.06006	0.24609
0.44092	-1.02539	0.21582
0.43018	-0.95557	0.18848
0.40918	-0.90088	0.18213
0.39258	-0.89062	0.19336
0.38818	-0.90137	0.2085
0.39795	-0.91309	0.21973
0.41162	-0.9248	0.23096
0.40283	-0.96045	0.23633
0.38574	-0.99316	0.24658
0.39209	-1.01465	0.24219
0.35596	-0.99658	0.23633
0.36377	-0.97168	0.2207
0.35596	-0.97168	0.21338
0.33496	-0.93945	0.20166
0.3042	-0.91504	0.20361
0.28418	-0.91113	0.1958
0.26807	-0.89551	0.19287
0.26807	-0.87061	0.20605
0.26221	-0.89648	0.19531
0.2793	-0.88428	0.2002
0.27539	-0.89844	0.18945
0.26416	-0.88623	0.17383
0.27441	-0.87598	0.17822
0.27686	-0.88037	0.1709
0.25781	-0.89795	0.22412
0.27979	-0.83008	0.23779
0.20947	-0.82861	0.18164
0.24512	-0.80615	0.125
0.25049	-0.78516	0.14746
0.28027	-0.8667	0.19336
0.12891	-0.72998	0.22314
0.21143	-0.77393	0.19482
0.35986	-0.74414	0.18457
0.28857	-0.78467	0.16406
0.34912	-0.80957	0.19043
0.32568	-0.79932	0.17187
0.33789	-0.82568	0.18311
0.32666	-0.87256	0.18945
0.33252	-0.9248	0.19824
0.33301	-0.94141	0.20215
0.3252	-0.93262	0.21875
0.34082	-0.95605	0.22266
0.36084	-0.96729	0.25732
0.35156	-0.95361	0.24756
0.35937	-0.98584	0.24951
0.39453	-0.99609	0.23486
0.36377	-0.98779	0.24512
0.38574	-1.01904	0.23389
0.36572	-1.02637	0.24951
0.37207	-1.00635	0.25439
0.37451	-0.9834	0.2749
0.37109	-0.95947	0.29883
0.35693	-0.89697	0.31055
0.3584	-0.86084	0.29346
0.354	-0.82959	0.28564
0.31592	-0.80371	0.26709
0.32471	-0.82471	0.25732
0.30811	-0.854	0.2417
0.31787	-0.89844	0.24463
0.32227	-0.94971	0.25977
0.33984	-0.98828	0.28662
0.35156	-0.99463	0.30371
0.36865	-0.99072	0.31934
0.35596	-0.96094	0.33545
0.34863	-0.92383	0.33643
0.3374	-0.89404	0.31982
0.31885	-0.84521	0.30811
0.29785	-0.81152	0.31934
0.30518	-0.77637	0.3042
0.30273	-0.76807	0.28516
0.27148	-0.76074	0.28418
0.29687	-0.75879	0.25635
0.31445	-0.76611	0.25684
0.3418	-0.78906	0.26465
0.33301	-0.80322	0.29248
0.36084	-0.80078	0.29346
0.35889	-0.83154	0.28662
0.35303	-0.84229	0.29199
0.36816	-0.83057	0.27148
0.35156	-0.84521	0.26465
0.35059	-0.84766	0.25244
0.3584	-0.86719	0.24951
0.33447	-0.83887	0.24902
0.34131	-0.93164	0.26074
0.36865	-0.90576	0.25684
0.38135	-0.92383	0.25879
0.36133	-0.95557	0.25391
0.38232	-0.96729	0.24365
0.40576	-1.03906	0.23486
0.40918	-1.05371	0.24365
0.42041	-1.08252	0.24707
0.4375	-1.1123	0.25439
0.4458	-1.11816	0.27832
0.45654	-1.11133	0.28223
0.45703	-1.08984	0.28174
0.45361	-1.0918	0.25098
0.44531	-1.1167	0.23145
0.45264	-1.20654	0.23486
0.4751	-1.2832	0.2583
0.48242	-1.31885	0.29736
0.50195	-1.33887	0.34375
0.50293	-1.30908	0.37598
0.48877	-1.20557	0.35986
0.48437	-1.10107	0.33838
0.4541	-1.02051	0.27832
0.43555	-0.95264	0.25146
0.40723	-0.88721	0.24316
0.37598	-0.88086	0.24316
0.36768	-0.85156	0.25781
0.36768	-0.84229	0.26416
0.37695	-0.8457	0.2915
0.39062	-0.85791	0.28564
0.38623	-0.89355	0.28418
0.41113	-0.94824	0.2876
0.41797	-0.98389	0.28418
0.40332	-1.01953	0.2832
0.37158	-1.0166	0.27734
0.35205	-1.03809	0.27783
0.32275	-1.01953	0.25391
0.28467	-0.99121	0.26025
0.27783	-0.95898	0.25635
0.26758	-0.96143	0.24707
0.26172	-0.92725	0.23584
0.25879	-0.91943	0.23047
0.271	-0.9292	0.22217
0.26514	-0.91797	0.20312
0.29443	-0.9502	0.21777
0.2998	-0.91748	0.22119
0.3125	-0.92871	0.2124
0.3208	-0.92725	0.19775
0.28906	-0.91016	0.19678
0.3125	-0.89404	0.20361
0.21436	-0.87451	0.23437
0.26074	-0.84961	0.19922
0.25293	-0.83838	0.18848
0.47803	-0.78857	0.45264
0.18506	-0.75439	0.08398
0.30811	-0.78516	0.17627
0.25	-0.77441	0.16455
0.2998	-0.79102	0.16406
0.32764	-0.76416	0.16357
0.29199	-0.80811	0.18262
0.30176	-0.87061	0.19434
0.30127	-0.94189	0.23145
0.31104	-0.96826	0.24072
0.31934	-0.99658	0.24219
0.31836	-0.97949	0.23096
0.31689	-0.95508	0.22119
0.33496	-0.93359	0.22217
0.32275	-0.91064	0.20166
0.33545	-0.92529	0.20361
0.38428	-0.96387	0.22461
0.39502	-0.97998	0.23975
0.40088	-1.00977	0.26025
0.38965	-1.00684	0.27393
0.39746	-0.96533	0.28467
0.39893	-0.93457	0.29492
0.37842	-0.81836	0.32617
0.46094	-0.79297	0.28809
0.33203	-0.76416	0.30176
0.3833	-0.71777	0.29883
0.30811	-0.69824	0.27783
0.30908	-0.74023	0.27393
0.29687	-0.76904	0.27295
0.29932	-0.84863	0.271
0.30225	-0.91016	0.28662
0.3208	-0.94141	0.30371
0.31885	-0.96533	0.32666
0.32568	-0.99121	0.32275
0.34521	-0.99658	0.31836
0.31641	-0.97314	0.32861
0.29834	-0.93359	0.30029
0.31152	-0.88965	0.29932
0.30078	-0.86133	0.27441
0.30371	-0.82275	0.28271
0.32568	-0.78369	0.26904
0.34473	-0.76904	0.25391
0.35498	-0.74414	0.24121
0.36621	-0.74219	0.25342
0.40186	-0.74658	0.22949
0.40381	-0.73779	0.25146
0.40967	-0.7583	0.25928
0.40918	-0.7583	0.27002
0.39258	-0.79053	0.26611
0.40186	-0.82617	0.26172
0.37256	-0.84424	0.27637
0.37158	-0.89404	0.28223
0.34521	-0.88525	0.28906
0.3584	-0.9248	0.29102
0.34521	-0.95508	0.28516
0.36279	-0.95801	0.29346
0.36279	-0.98437	0.28955
0.34912	-0.99609	0.28662
0.36426	-1.05469	0.29639
0.37988	-1.07666	0.28174
0.39746	-1.08838	0.29395
0.41406	-1.10791	0.2915
0.44141	-1.13574	0.30908
0.40723	-1.12793	0.30811
0.45361	-1.11816	0.31006
0.44824	-1.08887	0.29736
0.46289	-1.12158	0.26465
0.46582	-1.19043	0.27197
0.4668	-1.24072	0.28271
0.48779	-1.31152	0.31006
0.49805	-1.3252	0.34521
0.50391	-1.30029	0.37207
0.49121	-1.22852	0.37207
0.48437	-1.12646	0.35498
0.4751	-1.02734	0.32178
0.43945	-0.93652	0.28271
0.42822	-0.89697	0.26904
0.4248	-0.86475	0.23633
0.3916	-0.83398	0.25146
0.37939	-0.82812	0.25391
0.36426	-0.86914	0.28906
0.35059	-0.89453	0.29834
0.33105	-0.93213	0.29395
0.33105	-0.98096	0.31201
0.31836	-1.02539	0.31787
0.32324	-1.05908	0.31055
0.31201	-1.06934	0.31348
0.34375	-1.06152	0.31104
0.3125	-1.04443	0.30469
0.28857	-1.02832	0.27734
0.2959	-1.01318	0.24756
0.28027	-0.98975	0.24219
0.30908	-0.98926	0.22266
0.31738	-0.96191	0.22119
0.30176	-0.95264	0.2207
0.29199	-0.95312	0.21338
0.26025	-0.93506	0.20605
0.26172	-0.91748	0.19824
0.24805	-0.90186	0.19189
0.24902	-0.88721	0.17578
0.22852	-0.86084	0.17334
0.22803	-0.8418	0.17627
0.2627	-0.82373	0.14893
0.23193	-0.78467	0.16406
0.21631	-0.80566	0.10303
0.2417	-0.75439	0.13428
0.25391	-0.72803	0.17236
0.21533	-0.81738	0.16895
0.25439	-0.78564	0.16895
0.25635	-0.8125	0.16309
0.35059	-0.78711	0.1416
0.19922	-0.82373	0.1665
0.24219	-0.86279	0.16406
0.24463	-0.88672	0.17578
0.23926	-0.93164	0.19629
0.25732	-0.93701	0.20898
0.25684	-0.93115	0.22314
0.29346	-0.91748	0.23633
0.29102	-0.91064	0.22754
0.2998	-0.92725	0.20947
0.28516	-0.96826	0.2002
0.31348	-1.0083	0.20117
0.30371	-1.09766	0.23437
0.31152	-1.15674	0.24023
0.33105	-1.18652	0.27295
0.34814	-1.15967	0.28467
0.35986	-1.14795	0.30127
0.37109	-1.03711	0.30078
0.39111	-0.97217	0.31445
0.38867	-0.89502	0.31494
0.39795	-0.82617	0.30615
0.40625	-0.79395	0.2998
0.36719	-0.77979	0.29443
0.36572	-0.77295	0.29346
0.35986	-0.80615	0.27197
0.36475	-0.85352	0.2583
0.3501	-0.8877	0.25293
0.3418	-0.93164	0.26318
0.32373	-0.93799	0.28418
0.30859	-0.94092	0.31348
0.29346	-0.91455	0.32373
0.2749	-0.87549	0.33984
0.26709	-0.83887	0.3252
0.26074	-0.80127	0.2998
0.34277	-0.80859	0.30371
0.28564	-0.80762	0.29736
0.32861	-0.71582	0.27979
0.31885	-0.75928	0.30518
0.35205	-0.75928	0.30518
0.37354	-0.73584	0.2998
0.39648	-0.76807	0.30127
0.39258	-0.78271	0.30176
0.3877	-0.77539	0.27637
0.38281	-0.80322	0.27734
0.3623	-0.8374	0.28857
0.34473	-0.84912	0.27002
0.32715	-0.87793	0.28906
0.30078	-0.91113	0.2915
0.33691	-0.91406	0.28613
0.30811	-0.9458	0.28027
0.32568	-0.9707	0.27637
0.33057	-0.98145	0.26562
0.35937	-1.00439	0.26172
0.34619	-1.03809	0.25049
0.40332	-1.06836	0.23828
0.38818	-1.09375	0.24365
0.42334	-1.10303	0.24805
0.43896	-1.10645	0.24658
0.45264	-1.10498	0.26074
0.46045	-1.0957	0.26807
0.46973	-1.06934	0.26318
0.47949	-1.08545	0.24316
0.48437	-1.13086	0.24121
0.48437	-1.18164	0.25488
0.50439	-1.23291	0.27148
0.51904	-1.27148	0.30664
0.5332	-1.271	0.36328
0.53809	-1.2124	0.37744
0.5127	-1.15283	0.38086
0.49756	-1.05176	0.35693
0.45703	-0.99072	0.31494
0.42529	-0.94043	0.2876
0.37354	-0.91748	0.24756
0.34619	-0.87891	0.25
0.31836	-0.89307	0.25732
0.32129	-0.91162	0.26855
0.33252	-0.96533	0.30566
0.33887	-1.0	0.31592
0.35059	-1.05566	0.31348
0.37061	-1.09619	0.31787
0.37451	-1.12451	0.32666
0.36914	-1.11328	0.30273
0.37109	-1.09326	0.29932
0.3584	-1.04932	0.28613
0.3457	-1.0127	0.25391
0.33008	-0.98975	0.24756
0.30957	-0.93213	0.23535
0.29443	-0.89014	0.2207
0.29248	-0.86865	0.20996
0.28467	-0.85352	0.21777
0.25781	-0.84424	0.19238
0.24756	-0.84326	0.20898
0.25293	-0.84766	0.19678
0.25342	-0.83594	0.1958
0.25049	-0.81836	0.18359
0.14502	-0.89404	0.22559
0.29395	-0.79834	0.19141
0.2583	-0.80811	0.15674
0.30859	-0.76611	0.18604
0.26025	-0.7998	0.19775
0.18164	-0.76465	0.12402
0.20215	-0.75488	0.146
0.35986	-0.69727	0.13184
0.13672	-0.73975	0.15479
0.24805	-0.79395	0.13184
0.27393	-0.80811	0.13477
0.29834	-0.85059	0.14746
0.29297	-0.90479	0.19238
0.2749	-0.9707	0.22021
0.30225	-0.99268	0.22266
0.30469	-1.01758	0.23145
0.33105	-0.98975	0.21387
0.33887	-0.95068	0.21289
0.33105	-0.9458	0.19873
0.35156	-0.88379	0.18164
0.33789	-0.89502	0.18408
0.32764	-0.91992	0.18848
0.34814	-0.98682	0.19971
0.34424	-1.04199	0.19873
0.3501	-1.0542	0.22314
0.3833	-1.05859	0.23242
0.38721	-1.01318	0.25195
0.39502	-0.93408	0.25244
0.39355	-0.87988	0.23779
0.39941	-0.83203	0.22656
0.38184	-0.7915	0.21777
0.37646	-0.79297	0.22217
0.37842	-0.81982	0.2334
0.34912	-0.85254	0.22412
0.34961	-0.9126	0.2373
0.36035	-0.96289	0.27441
0.36279	-0.98096	0.2876
0.38281	-0.98535	0.30762
0.3584	-0.97363	0.30518
0.35986	-0.9624	0.31152
0.35645	-0.92529	0.30664
0.31152	-0.8877	0.30957
0.30225	-0.86084	0.30127
0.2998	-0.82324	0.28369
0.34229	-0.77295	0.26562
0.3042	-0.76367	0.26855
0.29639	-0.79199	0.26074
0.25146	-0.78076	0.27539
0.35156	-0.771	0.27197
0.37793	-0.77686	0.27148
0.35352	-0.80029	0.28662
0.37158	-0.8125	0.28662
0.38428	-0.84082	0.29395
0.35986	-0.82666	0.28906
0.36621	-0.87012	0.28857
0.36182	-0.83887	0.28516
0.28369	-0.80273	0.36865
0.38574	-0.84082	0.27295
0.3501	-0.875	0.28369
0.396	-0.87891	0.27783
0.36035	-0.92139	0.29102
0.40625	-0.94629	0.28369
0.39307	-0.9751	0.25879
0.40381	-1.0415	0.26709
0.37109	-1.06299	0.27734
0.41357	-1.0918	0.28223
0.40283	-1.13379	0.28857
0.4165	-1.14893	0.29053
0.43164	-1.14014	0.29834
0.4248	-1.13086	0.29443
0.43506	-1.12012	0.2915
0.42383	-1.13477	0.24902
0.43848	-1.20557	0.24023
0.45947	-1.25586	0.26953
0.47705	-1.29932	0.30615
0.49854	-1.31934	0.34619
0.48828	-1.28906	0.35205
0.47754	-1.24365	0.35889
0.44775	-1.14893	0.3291
0.41846	-1.0791	0.28711
0.4043	-0.99854	0.25439
0.37939	-0.94922	0.24561
0.35498	-0.89697	0.23193
0.32812	-0.85059	0.22852
0.30127	-0.84717	0.21484
0.30762	-0.86426	0.21924
0.30957	-0.8623	0.21582
0.31836	-0.896	0.22803
0.31006	-0.92725	0.24365
0.33008	-0.96387	0.23486
0.33203	-0.99512	0.25098
0.3374	-0.98926	0.23877
0.33154	-0.97998	0.21875
0.3252	-0.97705	0.21143
0.31348	-0.96436	0.1958
0.28125	-0.93115	0.18701
0.27734	-0.90527	0.17725
0.2583	-0.8877	0.16895
0.23779	-0.87549	0.16357
0.23584	-0.87109	0.14844
0.22656	-0.87891	0.15869
0.22998	-0.87891	0.17041
0.25195	-0.86523	0.18164
0.25684	-0.86426	0.18262
0.26562	-0.8501	0.17627
0.17529	-0.9375	0.24707
0.27539	-0.86621	0.16943
0.25342	-0.84619	0.17236
0.26514	-0.82227	0.14893
0.30859	-0.83105	0.11328
0.27295	-0.83447	0.13477
0.27393	-0.86523	0.14893
0.24854	-0.80518	0.14307
0.2793	-0.81006	0.14355
0.27393	-0.80322	0.15625
0.27197	-0.81641	0.1665
0.28613	-0.81982	0.15723
0.27344	-0.84033	0.17285
0.27148	-0.87744	0.17383
0.25586	-0.89502	0.18604
0.33301	-0.89893	0.19922
0.27539	-0.94727	0.25439
0.27881	-0.94824	0.22754
0.28564	-0.96191	0.24561
0.32861	-0.9668	0.19873
0.33203	-1.02881	0.20312
0.35156	-1.08398	0.23242
0.37354	-1.14111	0.25635
0.39551	-1.14551	0.26318
0.39551	-1.1167	0.27588
0.396	-1.0752	0.27148
0.40479	-1.0166	0.25684
0.39795	-0.9375	0.26562
0.40234	-0.88428	0.26123
0.38818	-0.82617	0.24658
0.38281	-0.79932	0.24414
0.3667	-0.79883	0.24268
0.37256	-0.83301	0.2417
0.38672	-0.84521	0.2627
0.4043	-0.91162	0.26904
0.41016	-0.95068	0.2959
0.40918	-0.9873	0.3252
0.41211	-0.99414	0.32617
0.39111	-0.98975	0.34473
0.37402	-0.96777	0.33447
0.3418	-0.94141	0.34229
0.30908	-0.88574	0.33057
0.30322	-0.83398	0.32666
0.27881	-0.80713	0.30566
0.29834	-0.79248	0.30615
0.30273	-0.78418	0.29687
0.31299	-0.79199	0.30957
0.32471	-0.77637	0.30566
0.33643	-0.7749	0.30664
0.35547	-0.79443	0.31006
0.36182	-0.79736	0.29199
0.3584	-0.81348	0.30469
0.35498	-0.82031	0.30469
0.33789	-0.83301	0.30762
0.32568	-0.84521	0.30371
0.31543	-0.86719	0.3125
0.30029	-0.87891	0.3042
0.30371	-0.89258	0.30078
0.31543	-0.8999	0.2915
0.32861	-0.91162	0.28369
0.3418	-0.92041	0.28076
0.33691	-0.96436	0.26172
0.34473	-0.95361	0.2666
0.35937	-0.99121	0.2627
0.35107	-0.98242	0.25293
0.37842	-1.0625	0.26074
0.38623	-1.04639	0.25977
0.40771	-1.06787	0.26465
0.4082	-1.05029	0.25635
0.40967	-1.02344	0.25732
0.41748	-1.01758	0.2085
0.40576	-1.07031	0.18164
0.41699	-1.14111	0.1792
0.42725	-1.20605	0.20117
0.42432	-1.22461	0.24365
0.45215	-1.2998	0.28955
0.44775	-1.26318	0.31738
0.45605	-1.23486	0.3208
0.45215	-1.14697	0.29736
0.44189	-1.06982	0.23242
0.4165	-1.02637	0.19629
0.39404	-0.98682	0.16748
0.37451	-0.9458	0.16016
0.36328	-0.92725	0.1626
0.36328	-0.92187	0.16797
0.35596	-0.91113	0.17383
0.3501	-0.92139	0.18555
0.33496	-0.94531	0.20264
0.34814	-0.97266	0.20752
0.36523	-0.979	0.20898
0.37061	-0.98975	0.22852
0.36426	-0.98779	0.24658
0.35254	-0.97217	0.26807
0.34814	-0.95459	0.24805
0.31787	-0.92773	0.22559
0.28955	-0.91895	0.20654
0.28662	-0.88037	0.19727
0.27246	-0.87939	0.18945
0.28125	-0.8623	0.19434
0.28076	-0.86621	0.19238
0.26562	-0.87793	0.20068
0.27637	-0.87207	0.21143
0.27344	-0.87305	0.19824
0.26514	-0.88086	0.2002
0.24951	-0.87549	0.21338
0.25635	-0.86963	0.2085
0.26318	-0.87402	0.19385
0.26562	-0.86328	0.19336
0.25195	-0.84814	0.18799
0.26123	-0.83447	0.17236
0.22705	-0.85303	0.20605
0.27734	-0.81055	0.1792
0.21191	-0.77979	0.17627
0.28027	-0.81885	0.17627
0.28809	-0.82812	0.17822
0.26318	-0.87695	0.20264
0.30127	-0.91016	0.22559
0.27588	-0.93408	0.22559
0.28125	-0.96387	0.22949
0.25635	-0.96094	0.21777
0.27588	-0.94141	0.21924
0.25146	-0.9248	0.2207
0.27344	-0.90479	0.18848
0.25537	-0.95654	0.21094
0.26611	-1.00977	0.20996
0.30615	-1.02148	0.21143
0.30957	-1.07617	0.22949
0.32422	-1.08936	0.23047
0.32959	-1.07471	0.22461
0.34814	-1.0415	0.24658
0.36523	-0.97314	0.23242
0.35205	-0.91602	0.2417
0.35352	-0.87988	0.24219
0.34668	-0.85107	0.2373
0.32764	-0.82324	0.23633
0.33057	-0.86328	0.23926
0.32471	-0.87354	0.22803
0.33105	-0.91406	0.2417
0.3374	-0.94189	0.24658
0.34277	-0.95312	0.2749
0.3418	-0.94287	0.28955
0.34277	-0.9126	0.2876
0.33057	-0.86182	0.29883
0.33398	-0.80322	0.31592
0.3418	-0.73437	0.31982
0.35156	-0.69092	0.34619
0.35156	-0.70703	0.34326
0.35742	-0.71826	0.37598
0.37109	-0.76318	0.38721
0.35059	-0.78076	0.36963
0.32666	-0.8042	0.38281
0.32031	-0.8335	0.35303
0.29443	-0.83057	0.34717
0.29346	-0.90186	0.3418
0.28076	-0.90576	0.36133
0.27051	-0.91211	0.35254
0.26221	-0.92432	0.35596
0.26416	-0.94336	0.36523
0.25439	-0.91553	0.3457
0.28516	-0.96045	0.34375
0.2876	-0.90771	0.32373
0.32178	-0.90088	0.32031
0.29736	-0.89404	0.29443
0.35791	-0.88525	0.25098
0.33984	-0.89648	0.24512
0.40479	-0.89795	0.23193
0.40186	-0.92773	0.23291
0.43652	-0.96484	0.2334
0.4707	-1.00635	0.26074
0.47021	-1.06738	0.29102
0.50293	-1.07275	0.30908
0.47998	-1.09619	0.31494
0.47412	-1.08496	0.29395
0.4668	-1.0791	0.2959
0.45557	-1.02686	0.27539
0.45801	-1.05078	0.24414
0.46582	-1.13086	0.25928
0.46777	-1.15869	0.27881
0.48877	-1.19971	0.32178
0.48584	-1.24316	0.36768
0.48145	-1.22412	0.39307
0.48047	-1.17822	0.39697
0.4707	-1.11475	0.36133
0.46338	-1.0542	0.30615
0.45947	-1.02051	0.26953
0.45898	-0.98535	0.25977
0.43311	-0.97803	0.24951
0.4248	-0.96582	0.25098
0.39941	-1.00586	0.24854
0.38525	-1.00146	0.26758
0.37207	-1.03857	0.26562
0.38867	-1.05908	0.2666
0.35986	-1.06201	0.28613
0.40283	-1.07178	0.27686
0.40186	-1.06689	0.25293
0.39795	-1.04346	0.25684
0.3833	-1.00928	0.25537
0.37598	-0.96777	0.22412
0.35254	-0.91553	0.20264
0.30811	-0.87891	0.17773
0.28662	-0.82666	0.16113
0.24609	-0.79053	0.16602
0.23926	-0.78125	0.17432
0.22217	-0.75684	0.18066
0.21777	-0.7417	0.2041
0.2251	-0.74756	0.22021
0.23535	-0.74756	0.23682
0.24854	-0.76807	0.23975
0.23389	-0.75781	0.20605
0.26123	-0.7334	0.19531
0.24805	-0.73535	0.17285
0.2334	-0.71191	0.16943
0.24902	-0.7041	0.17334
0.26074	-0.69043	0.17725
0.25098	-0.66504	0.18359
0.25098	-0.66016	0.17871
0.25342	-0.6582	0.18506
0.27051	-0.66064	0.17529
0.27002	-0.68359	0.16748
0.28369	-0.7251	0.16113
0.30762	-0.76904	0.18066
0.29541	-0.82227	0.17529
0.30908	-0.85645	0.2002
0.34814	-0.91016	0.20557
0.35059	-0.97119	0.2251
0.37305	-0.99414	0.2373
0.40381	-1.0	0.2417
0.39307	-1.00342	0.24805
0.38428	-0.98633	0.229
0.39551	-1.01367	0.22607
0.39014	-1.04541	0.22803
0.39941	-1.07861	0.24219
0.40234	-1.125	0.2417
0.41797	-1.16895	0.27002
0.4375	-1.20313	0.29639
0.43115	-1.18164	0.31494
0.44238	-1.14014	0.31201
0.4541	-1.05762	0.32227
0.4707	-0.97363	0.3252
0.4668	-0.8916	0.31445
0.46875	-0.80078	0.29492
0.47021	-0.75293	0.27148
0.45605	-0.74414	0.2334
0.46338	-0.76514	0.19873
0.44922	-0.80615	0.21191
0.49561	-0.88281	0.21387
0.41309	-0.89404	0.25879
0.46875	-0.98975	0.29346
0.45654	-1.0249	0.33594
0.44092	-0.98877	0.35352
0.44189	-0.98193	0.36768
0.41064	-0.94141	0.354
0.38428	-0.88672	0.34131
0.35107	-0.8457	0.3252
0.33105	-0.79492	0.32324
0.31836	-0.78174	0.31689
0.34814	-0.78906	0.31641
0.32422	-0.78369	0.30859
0.32422	-0.79297	0.29248
0.33154	-0.78857	0.30078
0.34814	-0.80615	0.30859
0.35107	-0.81738	0.30078
0.35059	-0.83545	0.31348
0.34961	-0.83105	0.30957
0.354	-0.83984	0.30908
0.3457	-0.85889	0.29199
0.34326	-0.84912	0.30713
0.32715	-0.85547	0.3042
0.34033	-0.90723	0.29736
0.34961	-0.92139	0.30029
0.34961	-0.9126	0.2915
0.3501	-0.91895	0.27686
0.35547	-0.92383	0.27637
0.36426	-0.94922	0.26221
0.37305	-0.98584	0.25537
0.38623	-0.9834	0.27002
0.37695	-1.02881	0.25928
0.40674	-1.04248	0.25586
0.41113	-1.07324	0.26025
0.4292	-1.0791	0.27051
0.4209	-1.06934	0.2666
0.43555	-1.05176	0.23926
0.43506	-1.05713	0.21924
0.44189	-1.12598	0.22705
0.44531	-1.1416	0.22314
0.45898	-1.19092	0.25537
0.46533	-1.23877	0.28516
0.4834	-1.19922	0.30859
0.47607	-1.16357	0.30469
0.48828	-1.12646	0.29687
0.50049	-1.07324	0.27051
0.46924	-1.03809	0.27393
0.46436	-0.99805	0.24121
0.47266	-0.98047	0.24756
0.46729	-0.96143	0.22949
0.45703	-0.94092	0.23975
0.43799	-0.94678	0.22314
0.40674	-0.97949	0.25439
0.4082	-0.97998	0.25732
0.40918	-0.99902	0.25586
0.39355	-1.00977	0.23145
0.35742	-1.00293	0.23145
0.41309	-0.98779	0.24023
0.39355	-0.96826	0.23242
0.40527	-0.90234	0.22412
0.43213	-0.86377	0.22803
0.42676	-0.84131	0.23145
0.41406	-0.82373	0.21289
0.39209	-0.78369	0.18555
0.35791	-0.76562	0.16895
0.3457	-0.75195	0.16504
0.32227	-0.74609	0.16211
0.33691	-0.74268	0.16797
0.31934	-0.74072	0.16064
0.31787	-0.73828	0.16895
0.34473	-0.72949	0.16846
0.34863	-0.72559	0.17139
0.38135	-0.74512	0.16846
0.37061	-0.71143	0.16992
0.39014	-0.71191	0.15771
0.38135	-0.69971	0.13574
0.38232	-0.70508	0.13184
0.38037	-0.66113	0.11816
0.37646	-0.66895	0.13086
0.37891	-0.66895	0.1333
0.39795	-0.68262	0.15527
0.42432	-0.71582	0.16797
0.42383	-0.7583	0.17676
0.42529	-0.77539	0.17773
0.43799	-0.82324	0.1709
0.43457	-0.86963	0.18359
0.45508	-0.87744	0.18018
0.45557	-0.89648	0.18408
0.46631	-0.91211	0.20264
0.4707	-0.89648	0.21582
0.45996	-0.91357	0.20703
0.47803	-0.94824	0.21533
0.47021	-0.98535	0.21533
0.45996	-1.02295	0.20215
0.45703	-1.05273	0.20996
0.44824	-1.05029	0.20654
0.43701	-1.04443	0.20654
0.42969	-1.00244	0.21582
0.41943	-0.96582	0.22266
0.39795	-0.91748	0.24268
0.40869	-0.88574	0.26123
0.40967	-0.86279	0.27539
0.37842	-0.85059	0.28564
0.37061	-0.83252	0.28613
0.35986	-0.82373	0.27441
0.34961	-0.83008	0.27344
0.3418	-0.84619	0.27295
0.40967	-0.88672	0.21094
0.27002	-0.88379	0.30908
0.36084	-0.94824	0.29102
0.31201	-0.92041	0.31787
0.34863	-0.93213	0.32422
0.33057	-0.92725	0.32715
0.30127	-0.90283	0.3252
0.33154	-0.87305	0.31738
0.38379	-0.84717	0.30908
0.36914	-0.81348	0.30273
0.3916	-0.80908	0.29736
0.37988	-0.7998	0.25977
0.39941	-0.82275	0.26172
0.39795	-0.83252	0.27295
0.41992	-0.83984	0.28516
0.4082	-0.86377	0.29785
0.39746	-0.87939	0.30225
0.40967	-0.87988	0.29639
0.39502	-0.88525	0.28076
0.39844	-0.90039	0.30225
0.38135	-0.90186	0.31104
0.38916	-0.90625	0.3042
0.36328	-0.90771	0.29883
0.35205	-0.896	0.2876
0.36328	-0.90039	0.2832
0.37061	-0.91406	0.29199
0.35645	-0.92529	0.27344
0.39502	-0.98779	0.2832
0.38428	-0.99609	0.28174
0.375	-1.05566	0.29297
0.41406	-1.08398	0.29004
0.41504	-1.1084	0.29199
0.4165	-1.11377	0.28955
0.41211	-1.104	0.29443
0.43408	-1.09082	0.28906
0.42236	-1.06396	0.25928
0.41406	-1.09863	0.23877
0.41895	-1.19141	0.24072
0.42725	-1.22217	0.24756
0.41699	-1.27197	0.25928
0.4541	-1.2666	0.30176
0.45508	-1.18311	0.32959
0.44336	-1.12988	0.31836
0.45654	-1.01025	0.29004
0.41699	-0.9541	0.25537
0.41162	-0.88281	0.20117
0.36035	-0.87207	0.18994
0.34717	-0.84131	0.17041
0.31592	-0.85547	0.1665
0.32031	-0.87842	0.19922
0.29883	-0.91504	0.21436
0.28809	-0.94092	0.21973
0.29443	-0.97021	0.23437
0.32715	-1.00342	0.23828
0.3374	-1.03955	0.23535
0.3501	-1.04688	0.24609
0.35791	-1.04639	0.25586
0.35596	-1.00781	0.23877
0.33691	-0.96094	0.229
0.33105	-0.95361	0.21729
0.31445	-0.92041	0.21973
0.30225	-0.87744	0.20557
0.30469	-0.86914	0.20068
0.26807	-0.86133	0.20801
0.25684	-0.85205	0.20166
0.25195	-0.85742	0.21777
0.25928	-0.84863	0.23975
0.27148	-0.86865	0.24805
0.25781	-0.87793	0.24756
0.26416	-0.87012	0.24756
0.26611	-0.87061	0.23242
0.26172	-0.8623	0.22852
0.25439	-0.8418	0.20654
0.26025	-0.82812	0.21143
0.26074	-0.81201	0.20654
0.26074	-0.79639	0.19922
0.27197	-0.79687	0.17529
0.25146	-0.77979	0.20703
0.27393	-0.81299	0.21191
0.27783	-0.84375	0.24072
0.28027	-0.87012	0.22119
0.28564	-0.89746	0.23193
0.27246	-0.91553	0.229
0.29492	-0.92773	0.21875
0.28271	-0.95264	0.21631
0.29883	-0.95557	0.23779
0.31543	-0.95996	0.25635
0.32129	-0.94434	0.26758
0.32959	-0.94385	0.25098
0.33496	-0.9624	0.23193
0.33057	-1.00977	0.23926
0.35156	-1.05908	0.22363
0.36963	-1.11279	0.22021
0.36377	-1.13086	0.23291
0.39355	-1.12598	0.25391
0.39795	-1.07324	0.271
0.43066	-1.00684	0.26709
0.42187	-0.9458	0.29004
0.41602	-0.87842	0.29053
0.40039	-0.80615	0.27002
0.38379	-0.77539	0.27002
0.36475	-0.77539	0.24365
0.34863	-0.78809	0.25098
0.34961	-0.80859	0.24658
0.35107	-0.87061	0.23828
0.34766	-0.92578	0.27246
0.34033	-0.95264	0.30029
0.33057	-0.96631	0.30615
0.29541	-0.96094	0.31836
0.29834	-0.94385	0.31885
0.28955	-0.89404	0.30713
0.27783	-0.84766	0.30371
0.27832	-0.80176	0.31104
0.36523	-0.74707	0.2959
0.27393	-0.71875	0.28857
0.32666	-0.70947	0.28125
0.35352	-0.70508	0.26904
0.35645	-0.7124	0.26025
0.34766	-0.71777	0.24902
0.37646	-0.74219	0.25635
0.36572	-0.75586	0.25049
0.3623	-0.82275	0.27979
0.36572	-0.80029	0.28174
0.36475	-0.8418	0.28418
0.34961	-0.87158	0.29443
0.33252	-0.85742	0.27686
0.32764	-0.93848	0.27686
0.32861	-0.91846	0.27441
0.33398	-0.93896	0.28271
0.34375	-0.98535	0.28516
0.34912	-0.97803	0.28076
0.354	-0.9834	0.26758
0.37939	-0.98437	0.25098
0.39209	-1.03271	0.24512
0.40576	-1.05957	0.23584
0.42236	-1.08105	0.22607
0.41992	-1.08447	0.22803
0.44482	-1.10254	0.23047
0.44482	-1.10693	0.24219
0.43604	-1.11279	0.25488
0.45264	-1.16602	0.24219
0.45654	-1.25488	0.24902
0.47168	-1.29883	0.27832
0.49951	-1.3584	0.29053
0.50928	-1.33984	0.3042
0.47656	-1.27002	0.32861
0.45898	-1.19434	0.30957
0.43896	-1.05908	0.29395
0.41846	-0.9624	0.25049
0.39795	-0.88037	0.23682
0.37256	-0.83887	0.21777
0.35156	-0.80957	0.19385
0.34521	-0.80127	0.18359
0.36035	-0.83789	0.19434
0.34229	-0.85254	0.20264
0.33008	-0.88428	0.21631
0.34619	-0.93457	0.22607
0.34912	-0.96777	0.21875
0.34521	-0.99805	0.23535
0.34717	-1.00586	0.23291
0.33203	-1.01416	0.23682
0.32471	-0.979	0.2334
0.30127	-0.9502	0.2207
0.28271	-0.92383	0.20215
0.25879	-0.88281	0.20557
0.24072	-0.85205	0.20605
0.25	-0.84277	0.19971
0.24072	-0.83105	0.19727
0.24463	-0.8208	0.2168
0.23437	-0.82471	0.20312
0.26758	-0.8291	0.20264
0.27832	-0.84326	0.20459
0.27832	-0.85449	0.18213
0.27783	-0.87793	0.18604
0.28613	-0.87793	0.18164
0.28955	-0.88525	0.18066
0.29687	-0.88574	0.1748
0.29541	-0.88574	0.17432
0.28271	-0.8833	0.17334
0.28174	-0.88379	0.17187
0.28125	-0.8877	0.17187
0.27344	-0.90625	0.18457
0.27881	-0.91895	0.19287
0.28857	-0.94434	0.21191
0.29199	-0.95898	0.22705
0.27881	-0.97803	0.22998
0.28467	-0.97754	0.23047
0.30273	-1.00928	0.21045
0.27295	-0.93018	0.20508
0.27197	-0.98682	0.20801
0.27441	-0.97852	0.20898
0.26758	-0.97021	0.2251
0.26172	-0.98389	0.23486
0.26855	-0.97949	0.25391
0.28223	-0.98242	0.2373
0.29883	-1.0166	0.23291
0.32812	-1.07471	0.23779
0.34326	-1.10645	0.25098
0.35937	-1.11865	0.25146
0.37354	-1.08691	0.27637
0.37793	-1.04297	0.27881
0.38428	-0.97266	0.27686
0.375	-0.90869	0.26172
0.37939	-0.8418	0.26318
0.36816	-0.79443	0.24902
0.35498	-0.74902	0.23193
0.33838	-0.74365	0.21729
0.33984	-0.73389	0.21191
0.33496	-0.76123	0.21826
0.33398	-0.79248	0.23535
0.34375	-0.81836	0.25391
0.33496	-0.86816	0.26074
0.33887	-0.88672	0.27734
0.32715	-0.90576	0.29639
0.33203	-0.91504	0.29687
0.31982	-0.89795	0.29932
0.30273	-0.88574	0.3042
0.29199	-0.86768	0.29395
0.27979	-0.83447	0.26074
0.27881	-0.80322	0.25635
0.28223	-0.80322	0.24072
0.28125	-0.80664	0.23975
0.30762	-0.7832	0.24951
0.32471	-0.78467	0.25635
0.32715	-0.80811	0.24805
0.33545	-0.82324	0.25537
0.32959	-0.81201	0.25879
0.36963	-0.88037	0.24561
0.33984	-0.85937	0.25391
0.35596	-0.89648	0.24365
0.35742	-0.92432	0.25635
0.33252	-0.92822	0.25049
0.35352	-0.93896	0.26318
0.34375	-0.95654	0.26904
0.33154	-0.94824	0.26367
0.33691	-0.95361	0.27344
0.33398	-0.93018	0.25781
0.35303	-0.9292	0.2417
0.3291	-0.95068	0.23926
0.34814	-0.9585	0.24902
0.36816	-1.00244	0.25293
0.36816	-1.00977	0.25635
0.39258	-0.99902	0.26221
0.37988	-1.04004	0.28076
0.38428	-1.02393	0.28662
0.38135	-1.01562	0.26025
0.37793	-1.09082	0.23486
0.38428	-1.17627	0.21924
0.38184	-1.2251	0.24902
0.40576	-1.26025	0.26904
0.41943	-1.31055	0.30078
0.43994	-1.25342	0.33643
0.45264	-1.18311	0.35352
0.44678	-1.11328	0.32031
0.46875	-1.05029	0.28809
0.44141	-1.00195	0.26123
0.43018	-0.94092	0.22461
0.41895	-0.92529	0.2168
0.39941	-0.88623	0.20166
0.40039	-0.90137	0.21094
0.37891	-0.9126	0.2251
0.36963	-0.91992	0.23828
0.35156	-0.92627	0.24365
0.33643	-0.93945	0.24854
0.32227	-0.97266	0.25244
0.31104	-0.95996	0.2583
0.32031	-0.94824	0.25244
0.30908	-0.93701	0.25146
0.30176	-0.91602	0.25
0.30078	-0.88867	0.24414
0.29932	-0.87842	0.22998
0.29199	-0.86768	0.23291
0.29053	-0.89014	0.23633
0.29639	-0.88916	0.22803
0.29639	-0.87891	0.22998
0.28516	-0.88525	0.2251
0.28906	-0.88965	0.21338
0.29443	-0.91016	0.21973
0.27588	-0.89893	0.21777
0.28467	-0.87646	0.20752
0.29053	-0.87012	0.21094
0.28711	-0.84277	0.2002
0.28613	-0.83789	0.20605
0.28662	-0.82373	0.19678
0.2832	-0.80615	0.17432
0.28369	-0.7998	0.19385
0.29687	-0.82373	0.18945
0.30371	-0.81104	0.19629
0.31836	-0.82617	0.18604
0.33838	-0.85156	0.20264
0.34375	-0.88086	0.21533
0.36719	-0.90527	0.21924
0.37451	-0.94238	0.22559
0.38477	-0.96777	0.24512
0.39014	-0.99072	0.26562
0.38721	-0.99414	0.26416
0.375	-0.99854	0.25439
0.37695	-0.97168	0.25391
0.354	-0.97559	0.25684
0.36133	-0.99756	0.25244
0.35498	-1.02246	0.25537
0.38037	-1.07031	0.29639
0.38867	-1.09424	0.31104
0.38818	-1.09277	0.33154
0.3877	-1.04248	0.34668
0.39453	-0.97705	0.34814
0.38867	-0.89453	0.33838
0.39453	-0.78662	0.31543
0.38525	-0.70947	0.28955
0.3623	-0.64062	0.26807
0.36572	-0.61377	0.25146
0.36768	-0.64014	0.24707
0.36426	-0.68213	0.23633
0.34863	-0.7417	0.25586
0.34912	-0.78223	0.28613
0.34619	-0.84863	0.31299
0.34131	-0.90088	0.34082
0.31641	-0.93213	0.34766
0.29297	-0.92139	0.3584
0.28613	-0.90137	0.35059
0.26123	-0.87305	0.32861
0.24219	-0.84863	0.3208
0.22168	-0.81104	0.30176
0.20605	-0.77783	0.28125
0.21143	-0.72803	0.26025
0.22852	-0.7334	0.26318
0.23975	-0.73242	0.24121
0.26807	-0.74268	0.25293
0.29736	-0.75293	0.25049
0.3208	-0.77881	0.27295
0.3457	-0.78809	0.27734
0.35156	-0.80566	0.27979
0.36768	-0.79199	0.28613
0.37891	-0.81299	0.27441
0.40088	-0.81445	0.29053
0.37305	-0.83057	0.27637
0.36816	-0.86523	0.28076
0.354	-0.85937	0.2915
0.35205	-0.90088	0.29736
0.33252	-0.92041	0.29053
0.34766	-0.96143	0.31641
0.34473	-0.99951	0.31055
0.34326	-1.03955	0.30908
0.35791	-1.08887	0.31445
0.35156	-1.10938	0.29834
0.36865	-1.14014	0.31006
0.3667	-1.16846	0.29687
0.38574	-1.15479	0.29541
0.39014	-1.13916	0.29346
0.40869	-1.10791	0.29687
0.39844	-1.06934	0.28613
0.41357	-1.04688	0.26074
0.41699	-1.09912	0.23389
0.4292	-1.1543	0.25879
0.46094	-1.19043	0.29639
0.48633	-1.20801	0.32715
0.48779	-1.21631	0.34473
0.51221	-1.17578	0.36328
0.50586	-1.10254	0.34668
0.49561	-1.00977	0.29395
0.46094	-0.97754	0.26221
0.43457	-0.89795	0.22607
0.40137	-0.88379	0.22168
0.39355	-0.8623	0.21826
0.35303	-0.8667	0.22559
0.36963	-0.88574	0.23096
0.37891	-0.89111	0.24805
0.38525	-0.91016	0.25781
0.37842	-0.94238	0.2627
0.40039	-0.96436	0.25488
0.39746	-0.96875	0.26709
0.39307	-0.98047	0.27539
0.39551	-0.95312	0.27393
0.38135	-0.92432	0.271
0.36572	-0.89258	0.25537
0.35596	-0.88574	0.23096
0.33154	-0.85498	0.22852
0.32764	-0.83936	0.23047
0.32764	-0.83643	0.2251
0.31152	-0.8418	0.23535
0.30371	-0.85889	0.24023
0.2959	-0.84961	0.23389
0.28809	-0.84326	0.23682
0.2793	-0.85889	0.2251
0.27148	-0.84766	0.2251
0.29443	-0.84814	0.229
0.30371	-0.84814	0.22852
0.31836	-0.85596	0.23096
0.33643	-0.86084	0.24072
0.35205	-0.86719	0.22168
0.35352	-0.88037	0.21436
0.3252	-0.88818	0.19678
0.32178	-0.90674	0.19141
0.31885	-0.91699	0.18799
0.3042	-0.95215	0.19531
0.31934	-0.96973	0.21045
0.31006	-1.00049	0.21729
0.3252	-1.01807	0.2334
0.32227	-1.04541	0.24512
0.33301	-1.03613	0.2334
